USUBJID,SITEID,AGE,SEX,RACE,ARM,ITTFL,PPROTFL,SAFFL,BASE_DAS28,PRIOR_BIO
S001-001,S001,42,F,WHITE,TREATMENT,Y,Y,Y,5.8,N
S001-002,S001,58,M,WHITE,PLACEBO,Y,Y,Y,6.2,Y
S001-003,S001,37,F,ASIAN,TREATMENT,Y,N,Y,5.5,N
S002-001,S002,61,F,BLACK,PLACEBO,Y,Y,Y,6.9,Y
S002-002,S002,49,M,WHITE,TREATMENT,Y,Y,Y,5.4,N
S002-003,S002,53,F,WHITE,PLACEBO,Y,Y,Y,6.1,N
S003-001,S003,44,M,WHITE,TREATMENT,Y,N,Y,5.3,N
S003-002,S003,39,F,WHITE,PLACEBO,Y,Y,Y,5.9,Y
