USUBJID,AETERM,AESEV,AESER,AESTDY,AEENDY
S001-001,Headache,MILD,N,14,17
S001-002,Nausea,MODERATE,N,3,10
S001-002,Infection,SEVERE,Y,45,60
S002-001,Fatigue,MILD,N,7,14
S002-002,Headache,MILD,N,21,22
S003-002,Injection site reaction,MILD,N,1,2
